Folder: heat-controlled-multistability/data/raw/PDMS_properties

Note: data/raw/PDMS_properties/200820_PDMS_DMA.txt
time	E'	E"	tan(d)	Temp	E*	e	Force
s	Pa	Pa	 	°C	Pa	%	g
13	2.1871e+06	-22831.	-0.0104	34.09	2.1872e+06	0.01978	0.18527
23	2.4008e+06	1571.82	6.5470e-04	33.80	2.4008e+06	0.01978	0.20335
35	2.2734e+06	2.1726e+05	0.09557	31.94	2.2837e+06	0.01978	0.19347
48	2.2963e+06	43837.0	0.01909	29.88	2.2967e+06	0.01980	0.19472
60	1.9820e+06	1.6230e+05	0.08188	28.62	1.9886e+06	0.01977	0.16835
71	2.1474e+06	1.8246e+05	0.08497	29.24	2.1552e+06	0.01976	0.18238
84	2.1939e+06	1.7454e+05	0.07956	30.86	2.2008e+06	0.01977	0.18634
95	1.9659e+06	-77700.	-0.0395	32.01	1.9675e+06	0.01977	0.16658
105	2.0828e+06	34744.7	0.01668	32.93	2.0831e+06	0.01977	0.17635
115	2.0820e+06	1.2675e+05	0.06088	33.84	2.0858e+06	0.01977	0.17665
131	1.9976e+06	1.2178e+05	0.06097	35.28	2.0013e+06	0.01979	0.16964
147	1.9362e+06	73780.1	0.03811	36.72	1.9376e+06	0.01979	0.16423
158	1.7771e+06	1.3421e+05	0.07552	37.66	1.7821e+06	0.01979	0.15102
168	1.7303e+06	1.3483e+05	0.07792	38.52	1.7356e+06	0.01981	0.14723
178	1.9404e+06	73574.0	0.03792	39.41	1.9418e+06	0.01979	0.16455
191	1.8261e+06	2.6780e+05	0.14665	40.51	1.8456e+06	0.01982	0.15666
202	1.8540e+06	-14179.	-0.0076	41.42	1.8541e+06	0.01981	0.15732
215	1.8694e+06	1.0760e+05	0.05756	42.54	1.8725e+06	0.01982	0.15894
227	1.8342e+06	1.0392e+05	0.05666	43.54	1.8372e+06	0.01982	0.15597
239	1.6743e+06	90866.4	0.05427	44.55	1.6767e+06	0.01981	0.14224
251	1.7176e+06	71945.1	0.04189	45.53	1.7191e+06	0.01979	0.14572
263	1.7475e+06	1.9201e+05	0.10988	46.55	1.7580e+06	0.01982	0.14923
275	1.6953e+06	1.1815e+05	0.06969	47.57	1.6994e+06	0.01983	0.14430
286	1.8002e+06	-8995.4	-0.0050	48.48	1.8002e+06	0.01979	0.15258
298	1.6436e+06	2.3922e+05	0.14555	49.50	1.6609e+06	0.01982	0.14098
310	1.8167e+06	40752.4	0.02243	50.49	1.8172e+06	0.01979	0.15404
322	1.6743e+06	2367.17	0.00141	51.49	1.6743e+06	0.01982	0.14210
336	1.8995e+06	1.0127e+05	0.05332	52.66	1.9022e+06	0.01979	0.16126
348	1.8536e+06	1.3110e+05	0.07073	53.67	1.8583e+06	0.01982	0.15777
361	1.7914e+06	35555.1	0.01985	54.74	1.7918e+06	0.01980	0.15193
374	1.8786e+06	43586.0	0.02320	55.84	1.8791e+06	0.01982	0.15950
386	1.7084e+06	99313.8	0.05813	56.85	1.7113e+06	0.01981	0.14518
399	1.7818e+06	-51830.	-0.0291	57.93	1.7826e+06	0.01979	0.15111
412	1.7022e+06	36574.4	0.02149	59.03	1.7026e+06	0.01981	0.14448
426	1.7128e+06	24496.4	0.01430	60.19	1.7130e+06	0.01984	0.14553
441	1.7975e+06	86665.0	0.04822	61.45	1.7996e+06	0.01981	0.15269
453	1.8084e+06	34972.0	0.01934	62.44	1.8087e+06	0.01982	0.15354
467	1.8266e+06	1.6230e+05	0.08885	63.63	1.8338e+06	0.01982	0.15565
479	1.9375e+06	28303.8	0.01461	64.63	1.9377e+06	0.01984	0.16463
491	1.7989e+06	1.2757e+05	0.07092	65.63	1.8034e+06	0.01980	0.15296
504	1.8015e+06	1.2318e+05	0.06838	66.70	1.8057e+06	0.01984	0.15344
518	1.8365e+06	1.3041e+05	0.07101	67.90	1.8411e+06	0.01980	0.15616
534	1.7610e+06	2.5532e+05	0.14498	69.17	1.7795e+06	0.01983	0.15113
548	1.9489e+06	57850.6	0.02968	70.38	1.9498e+06	0.01980	0.16531
560	1.9275e+06	1.4685e+05	0.07619	71.40	1.9331e+06	0.01982	0.16412
572	1

Note: README.md
# Heat-controlled multistability
Analyze data and generate figures for [Temperature-Responsive Multistable Metamaterials](https://pubs.acs.org/doi/abs/10.1021/acsami.1c07327) \[1]

This project defines and characterizes a model of a mechanical metamaterial based on experimental data of the metamaterial and its component materials. We import, clean, and analyze experimental data collected from standard materials testers, custom test fixtures, and ImageJ measurements and use it to map the metamaterial behavior across the relevant parameter range. The analysis script in the root directory can be run to regenerate nearly all of the analysis and related figures.

[1] Korpas, Lucia M., et al. "Temperature-Responsive Multistable Metamaterials." ACS Applied Materials & Interfaces 13.26 (2021): 31163-31170.

File: 200823_PDMS_tensile_sample1_w6.57_t0.53_L22.74_27.2C_0.2mmps_1.csv
Labview measurement
Date(mm/dd/yy) 8/23/2020,4:01 PM
EDX-10A settings
Sampling frequency(Hz), 1000
Low pass filter  (0:2kHz/1:100Hz),1
VELMEX settings
Conversion(step/mm),200
Maximum displacement (mm),
-2.000000E+0
Speed (mm/sec),
0.2
Initialheight(mm),
12
Comments,

Time[s],CH1,CH2,CH3,CH4
0.000000000000000,0.0228744,-159.892,-159.847,0.000000000000000
0.073,0.0252817,-159.892,-159.847,0.000000000000000
0.146,0.0302005,-159.892,-159.847,0.000000000000000
0.219,0.106202,-159.892,-159.847,0.000000000000000
0.292,0.0560657,-159.892,-159.847,0.000000000000000
0.365,-0.0135371,-159.892,-159.847,0.000000000000000
0.438,0.0679146,-159.892,-159.847,0.000000000000000
0.511,0.144885,-159.892,-159.847,0.000000000000000
0.584,0.118447,-159.892,-159.847,0.000000000000000
0.657,-0.135183,-159.892,-159.847,0.000000000000000
0.73,0.266041,-159.892,-159.847,0.000000000000000
0.803,0.0205505,-159.892,-159.847,0.000000000000000
0.876,0.110079,-159.892,-159.847,0.000000000000000
0.949,0.0738129,-159.892,-159.847,0.000000000000000
1.022,0.0615994,-159.892,-159.847,0.000000000000000
1.095,0.0719892,-159.892,-159.847,0.000000000000000
1.168,0.137476,-159.892,-159.847,0.000000000000000
1.241,0.110412,-159.892,-159.847,0.000000000000000
1.314,0.0406737,-159.892,-159.847,0.000000000000000
1.387,0.115185,-159.892,-159.847,0.000000000000000
1.46,0.112809,-159.892,-159.847,0.000000000000000
1.533,0.0515221,-159.892,-159.847,0.000000000000000
1.606,0.0503029,-159.892,-159.847,0.000000000000000
1.679,0.295408,-159.892,-159.847,0.000000000000000
1.752,0.131942,-159.892,-159.847,0.000000000000000
1.825,0.20117,-159.892,-159.847,0.000000000000000
1.898,0.169406,-159.892,-159.847,0.000000000000000
1.971,0.112048,-159.892,-159.847,0.000000000000000
2.044,0.203452,-159.892,-159.847,0.000000000000000
2.117,0.160475,-159.892,-159.847,0.000000000000000
2.19,0.141269,-159.892,-159.847,0.000000000000000
2.263,0.190769,-159.892,-159.847,0.000000000000000
2.336,0.173335,-159.892,-159.847,0.000000000000000
2.409,0.157901,-159.892,-159.847,0.000000000000000
2.482,-0.0710618,-159.892,-159.847,0.000000000000000
2.555,0.431988,-159.892,-159.847,0.000000000000000
2.628,0.143926,-159.892,-159.847,0.000000000000000
2.701,0.266552,-159.892,-159.847,0.000000000000000
2.774,0.232517,-159.892,-159.847,0.000000000000000
2.847,0.208913,-159.892,-159.847,0.000000000000000
2.92,0.245095,-159.892,-159.847,0.000000000000000
2.993,0.279401,-159.892,-159.847,0.000000000000000
3.066,0.216447,-159.892,-159.847,0.000000000000000
3.139,0.256506,-159.892,-159.847,0.000000000000000
3.212,0.353829,-159.892,-159.847,0.000000000000000
3.285,0.313906,-159.892,-159.847,0.000000000000000
3.358,0.106754,-159.892,-159.847,0.000000000000000
3.431,0.155598,-159.892,-159.847,0.000000000000000
3.504,0.452153,-159.892,-159.847,0.000000000000000
3.577,0.254036,-159.892,-159.847,0.000000000000000
3.65,0.301692,-159.892,-159.847,0.000000000000000
3.723,0.281652,-159.892,-159.847,0.000000000000000
3.796,0.222856,-159.892,-159.847,0.000000000000000
3.869,0.368721,-159.892,-159.847,0.000000000000000
3.942,0.303266,-159.892,-159.847,0.000000000000000
4.015,0.260935,-159.892,-159.847,0.000000000000000
4.088,0.341282,-159.892,-159.847,0.000000000000000
4.161,0.374546,-159.892,-159.847,0.000000000000000
4.234,0.414011,-159.892,-159.847,0.000000000000000
4.307,0.0843383,-159.892,-159.847,0.000000000000000
4.38,0.550632,-159.892,-159.847,0.000000000000000
4.453,0.264676,-159.892,-159.847,0.000000000000000
4.526,0.376234,-159.892,-159.847,0.000000000000000
4.599,0.320836,-159.892,-159.847,0.000000000000000
4.672,0.303516,-159.892,-159.847,0.000000000000000
4.745,0.330225,-159.892,-159.847,0.000000000000000
4.818,0.342626,-159.892,-159.847,0.000000000000000
4.891,0.3348,-159.892,-159.847,0.000000000000000
4.964,0.288957,-159.892,-159.847,0.000000000000000
5.037,0.324504,-159.892,-159.847,0.000000000000000
5.11,0.3645,-159.892,-159.847,0.000000000000000
5.183,0.231954,-159.892,-159.847,0.000000000000000
5.256,0.348118,-159.892,-159.847,0.000000000000000
5.329,0.4944,-159.892,-159.847,0.000000000000000
5.402,0.367377,-159.892,-159.847,0.000000000000000
5.475,0.40408,-159.892,-159.847,0.000000000000000
5.548,0.371837,-159.892,-159.847,0.000000000000000
5.621,0.349838,-159.892,-159.847,0.000000000000000
5.694,0.441408,-159.892,-159.847,0.000000000000000
5.767,0.366762,-159.892,-159.847,0.000000000000000
5.84,0.393857,-159.892,-159.847,0.000000000000000
5.913,0.39666,-159.892,-159.847,0.000000000000000
5.986,0.405799,-159.892,-159.847,0.000000000000000
6.059,0.372389,-159.892,-159.847,0.000000000000000
6.132,0.172772,-159.892,-159.847,0.000000000000000
6.205,0.689869,-159.892,-159.847,0.000000000000000
6.278,0.37761,-159.892,-159.847,0.000000000000000
6.351,0.50232,-159.892,-159.847,0.000000000000000
6.424,0.398848,-159.892,-159.847,0.000000000000000
6.497,0.399932,-159.892,-159.847,0.000000000000000
6.57,0.501695,-159.892,-159.847,0.000000000000000
6.643,0.443951,-159.892,-159.847,0.000000000000000
6.716,0.428392,-159.892,-159.847,0.000000000000000
6.789,0.496109,-159.892,-159.847,0.000000000000000
6.862,0.534907,-159.892,-159.847,0.000000000000000
6.935,0.525528,-159.892,-159.847,0.000000000000000
7.008,0.299128,-159.892,-159.847,0.000000000000000
7.081,0.410979,-159.892,-159.847,0.000000000000000
7.154,0.593463,-159.892,-159.847,0.000000000000000
7.227,0.455456,-159.892,-159.847,0.000000000000000
7.3,0.49268,-159.892,-159.847,0.000000000000000
7.373,0.467555,-159.892,-159.847,0.000000000000000
7.446,0.450871,-159.892,-159.847,0.000000000000000
7.519,0.54736,-159.892,-159.847,0.000000000000000
7.592,0.481384,-159.892,-159.847,0.000000000000000
7.665,0.471171,-159.892,-159.847,0.000000000000000
7.738,0.520984,-159.892,-159.847,0.000000000000000
7.811,0.570485,-159.892,-159.847,0.000000000000000
7.884,0.55701,-159.892,-159.847,0.000000000000000
7.957,0.279099,-159.892,-159.847,0.000000000000000
8.03,0.745101,-159.892,-159.847,0.000000000000000
8.103,0.445056,-159.892,-159.847,0.000000000000000
8.176,0.563429,-159.892,-159.847,0.000000000000000
8.249,0.500236,-159.892,-159.847,0.000000000000000
8.322,0.507197,-159.892,-159.847,0.000000000000000
8.395,0.53399,-159.892,-159.847,0.000000000000000
8.468,0.536887,-159.892,-159.847,0.000000000000000
8.541,0.511584,-159.892,-159.847,0.000000000000000
8.614,0.489554,-159.892,-159.847,0.000000000000000
8.687,0.513345,-159.892,-159.847,0.000000000000000
8.76,0.527539,-159.892,-159.847,0.000000000000000
8.833,0.40706,-159.892,-159.847,0.000000000000000
8.906,0.576748,-159.892,-159.847,0.000000000000000
8.979,0.630792,-159.892,-159.847,0.000000000000000
9.052,0.556875,-159.892,-159.847,0.000000000000000
9.125,0.600435,-159.892,-159.847,0.000000000000000
9.198,0.549434,-159.892,-159.847,0.000000000000000
9.271,0.534542,-159.892,-159.847,0.000000000000000
9.344,0.618068,-159.892,-159.847,0.000000000000000
9.417,0.560887,-159.892,-159.847,0.000000000000000
9.49,0.552175,-159.892,-159.847,0.000000000000000
9.563,0.615764,-159.892,-159.847,0.000000000000000
9.636,0.586127,-159.892,-159.847,0.000000000000000
9.709,0.546162,-159.892,-159.847,0.000000000000000
9.782,0.320273,-159.892,-159.847,0.000000000000000
9.855,0.873865,-159.892,-159.847,0.000000000000000
9.928,0.52954,-159.892,-159.847,0.000000000000000
10.001,0.647716,-159.892,-159.847,0.000000000000000
10.074,0.601696,-159.892,-159.847,0.000000000000000
10.147,0.550247,-159.892,-159.847,0.000000000000000
10.22,0.598059,-159.892,-159.847,0.000000000000000
10.293,0.591316,-159.892,-159.847,0.000000000000000
10.366,0.608438,-159.892,-159.847,0.000000000000000
10.439,0.618766,-159.892,-159.847,0.000000000000000
10.512,0.618995,-159.892,-159.847,0.000000000000000
10.585,0.616046,-159.892,-159.847,0.000000000000000
10.658,0.593661,-159.892,-159.847,0.000000000000000
10.731,0.600112,-159.892,-159.847,0.000000000000000
10.804,0.603791,-159.892,-159.847,0.000000000000000
10.877,0.598674,-159.892,-159.847,0.000000000000000
10.95,0.595235,-159.892,-159.847,0.000000000000000
11.023,0.603374,-159.892,-159.847,0.000000000000000
11.096,0.588044,-159.892,-159.847,0.000000000000000
11.169,0.606094,-159.892,-159.847,0.000000000000000
11.242,0.617119,-159.892,-159.847,0.000000000000000
11.315,0.592036,-159.892,-159.847,0.000000000000000
11.388,0.58201,-159.892,-159.847,0.000000000000000
11.461,0.59289,-159.892,-159.847,0.000000000000000
11.534,0.60849,-159.892,-159.847,0.000000000000000
11.607,0.589503,-159.892,-159.847,0.000000000000000
11.68,0.561981,-159.892,-159.847,0.000000000000000
11.753,0.602884,-159.892,-159.847,0.000000000000000
11.826,0.602613,-159.892,-159.847,0.000000000000000
11.899,0.590649,-159.892,-159.847,0.000000000000000
11.972,0.597746,-159.892,-159.847,0.000000000000000
12.045,0.58894,-159.892,-159.847,0.000000000000000
12.118,0.604854,-159.892,-159.847,0.000000000000000
12.191,0.600122,-159.892,-159.847,0.000000000000000
12.264,0.591858,-159.892,-159.847,0.000000000000000
12.337,0.596319,-159.892,-159.847,0.000000000000000
12.41,0.594109,-159.892,-159.847,0.000000000000000
12.483,0.581687,-159.892,-159.847,0.000000000000000
12.556,0.606896,-159.892,-159.847,0.000000000000000
12.629,0.591316,-159.892,-159.847,0.000000000000000
12.702,0.597965,-159.892,-159.847,0.000000000000000
12.775,0.592088,-159.892,-159.847,0.000000000000000
12.848,0.597298,-159.892,-159.847,0.000000000000000
12.921,0.607834,-159.892,-159.847,0.000000000000000
12.994,0.586419,-159.892,-159.847,0.000000000000000
13.067,0.607094,-159.892,-159.847,0.000000000000000
13.14,0.607865,-159.892,-159.847,0.000000000000000
13.213,0.575987,-159.892,-159.847,0.000000000000000
13.286,0.591494,-159.892,-159.847,0.000000000000000
13.359,0.596569,-159.892,-159.847,0.000000000000000
13.432,0.584084,-159.892,-159.847,0.000000000000000
13.505,0.611857,-159.892,-159.847,0.000000000000000
13.578,0.583615,-159.892,-159.847,0.000000000000000
13.651,0.586106,-159.892,-159.847,0.000000000000000
13.724,0.592984,-159.892,-159.847,0.000000000000000
13.797,0.583073,-159.892,-159.847,0.000000000000000
13.87,0.599435,-159.892,-159.847,0.000000000000000
13.943,0.594641,-159.892,-159.847,0.000000000000000
14.016,0.589461,-159.892,-159.847,0.000000000000000
14.089,0.597903,-159.892,-159.847,0.000000000000000
14.149,0.586971,-159.892,-159.847,0.000000000000000